Folder: XAS_Workshops/_static/March2024/BMM (part 2)

File: Mn_Manganosite.001
# XDI/1.0 BlueSky/1.11.0 BMM/2023-2.1-py310-tiled
# Beamline.name: BMM (06BM) -- Beamline for Materials Measurement (NIST)
# Beamline.xray_source: NSLS-II three-pole wiggler
# Beamline.collimation: paraboloid mirror, 5 nm Rh on 30 nm Pt
# Beamline.focusing: not in use
# Beamline.harmonic_rejection: flat mirror, Si stripe, pitch = 7.0 mrad relative to beam
# Beamline.software: Bluesky 1.11.0, Ophyd 1.8.0, DataBroker 2.0.0b23, Python 3.10.8, 2023-2.1-py310-tiled
# Detector.I0: 10 cm N2
# Detector.I1: 25 cm N2
# Detector.I2: 25 cm N2
# Element.symbol: Mn
# Element.edge: K
# Element.reference: Mn
# Element.reference_material: Mn metal powder
# Facility.name: NSLS-II
# Facility.energy: 3.0
# Facility.current: 399.4
# Facility.mode: top-off
# Facility.GUP: 315355
# Facility.SAF: 313563
# Facility.cycle: 2024-1
# Mono.name: Si(111)
# Mono.d_spacing: 3.13542
# Mono.encoder_resolution: 0.0000050 deg/ct
# Mono.angle_offset: 16.0892 deg
# Mono.scan_mode: pseudo channel cut
# Mono.scan_type: step
# Mono.direction: forward in energy
# Sample.name: MnO
# Sample.prep: PEG pellet
# Sample.x: 90.630 mm
# Sample.y: 81.961 mm
# Sample.SDD_position: 205.000 mm
# Scan.experimenters: XAS course 2024
# Scan.edge_energy: 6539.0
# Scan.start_time: 2024-03-21T10:10:54
# Scan.end_time: 2024-03-21T10:17:44
# Scan.transient_id: 5285
# Scan.uid: 53dd7aaf-000a-47c7-a8ad-247a63687b4b
# Scan.hdf5file: None
# Scan.plot_hint: ln(I0/It)  --  ln($5/$6)
# Column.1: energy eV
# Column.2: requested_energy eV
# Column.3: measurement_time seconds
# Column.4: xmu
# Column.5: I0 nA
# Column.6: It nA
# Column.7: Ir nA
# ///////////
# Welcome to BMM
# -----------
# energy  requested_energy  measurement_time  xmu  I0  It  Ir
  6339.011  6339.000  0.500  5.449465  212.248  0.912369  0.004418
  6369.001  6369.000  0.500  5.386541  212.822  0.974253  0.004890
  6399.015  6399.000  0.500  5.326481  213.563  1.038162  0.005177
  6429.008  6429.000  0.500  5.267203  214.051  1.104081  0.005866
  6459.014  6459.000  0.500  5.217795  212.584  1.152048  0.006014
  6488.983  6489.000  0.500  5.138087  214.014  1.256026  0.006965
  6510.994  6511.000  0.500  5.099831  214.235  1.306360  0.007238
  6516.987  6517.000  0.500  5.090606  214.321  1.318996  0.007286
  6522.994  6523.000  0.500  5.080988  214.382  1.332122  0.007211
  6528.997  6529.000  0.500  5.076637  214.513  1.338747  0.007120
  6529.887  6529.900  0.500  5.075315  214.455  1.340152  0.007081
  6530.784  6530.800  0.500  5.075815  214.499  1.339759  0.006941
  6531.688  6531.700  0.500  5.075514  214.581  1.340675  0.006994
  6532.589  6532.600  0.500  5.075032  214.561  1.341196  0.006985
  6533.492  6533.500  0.500  5.075979  214.544  1.339822  0.006584
  6534.392  6534.400  0.500  5.076650  214.512  1.338722  0.006602
  6535.289  6535.300  0.500  5.076808  214.465  1.338219  0.006102
  6536.198  6536.200  0.500  5.079965  214.567  1.334631  0.005516
  6537.095  6537.100  0.500  5.082571  214.509  1.330800  0.004679
  6537.994  6538.000  0.500  5.090526  214.588  1.320739  0.002588
  6538.899  6538.900  0.500  5.111599  214.589  1.293209  0.001167
  6539.798  6539.800  0.500  5.127519  214.614  1.272930  0.000617
  6540.698  6540.700  0.500  5.124790  214.413  1.275212  0.000372
  6541.593  6541.600  0.500  5.141195  214.552  1.255278  0.000233
  6542.497  6542.500  0.500  5.204928  214.476  1.177356  0.000199
  6543.404  6543.400  0.500  5.346104  214.558  1.022731  0.000025
  6544.302  6544.300  0.500  5.538149  214.64  0.844353  0.000139
  6545.197  6545.200  0.500  5.673908  214.485  0.736630  0.000110
  6546.100  6546.100  0.500  5.753897  214.667  0.680581  0.000104
  6547.004  6547.000  0.500  5.836002  214.601  0.626742  -0.000121
  6547.902  6547.900  0.500  5.934860  214.611  0.567773  -0.000298
  6548.799  6548.800  0.500  6.072402  214.623  0.494840  -0.000147
  6549.700  6549.700  0.500  6.308575  214.611  0.390727  -0.000223
  6550.602  6550.600  0.500  6.476662  214.558  0.330191  -0.000229
  6551.498  6551.500  0.500  6.530495  214.487  0.312783  -0.000064
  6552.401  6552.400  0.500  6.579108  214.583  0.298074  -0.000113
  6553.301  6553.300  0.500  6.673341  214.559  0.271239  -0.000198
  6554.207  6554.200  0.500  6.750215  214.523  0.251127  0.000077
  6555.096  6555.100  0.500  6.637220  214.534  0.281182  -0.000124
  6556.002  6556.000  0.500  6.407408  214.599  0.353937  -0.000302
  6556.905  6556.900  0.500  6.207889  214.567  0.432028  -0.000038
  6557.802  6557.800  0.500  6.086291  214.452  0.487628  -0.000328
  6558.695  6558.700  0.500  6.023680  214.39  0.518984  -0.000324
  6559.605  6559.600  0.500  5.998482  214.49  0.532476  -0.000075
  6560.504  6560.500  0.500  5.978888  214.273  0.542463  -0.000034
  6561.402  6561.400  0.500  5.951968  214.173  0.557004  0.000061
  6562.297  6562.300  0.500  5.933637  214.427  0.567981  -0.000234
  6563.206  6563.200  0.500  5.931546  214.366  0.569008  0.000054
  6564.003  6564.000  0.500  5.944841  214.327  0.561391  -0.000162
  6567.021  6567.010  0.500  6.115239  214.455  0.473719  -0.000196
  6570.199  6570.200  0.500  6.027286  214.294  0.516883  -0.000327
  6573.564  6573.560  0.500  5.917173  214.341  0.577178  -0.000188
  6577.085  6577.080  0.500  5.915347  214.373  0.578320  -0.000060
  6580.790  6580.780  0.500  5.900821  215.159  0.588932  -0.000139
  6584.653  6584.650  0.500  5.937587  215.057  0.567405  -0.000096
  6588.705  6588.700  0.500  5.983215  215.042  0.542060  -0.000005
  6592.924  6592.910  0.500  6.149880  215.035  0.458828  -0.000025
  6597.303  6597.290  0.500  6.173145  215.06  0.448329  -0.000110
  6601.861  6601.850  0.500  6.097968  214.682  0.482482  -0.000073
  6606.591  6606.580  0.500  5.990459  215.14  0.538391  -0.000190
  6611.486  6611.480  0.500  5.931679  215.171  0.571069  -0.000115
  6616.558  6616.550  0.500  5.869510  215.158  0.607663  -0.000189
  6621.807  6621.790  0.500  5.905595  214.928  0.585500  -0.000197
  6627.222  6627.210  0.500  5.929814  215.128  0.572021  -0.000230
  6632.801  6632.790  0.500  5.905553  215.118  0.586042  0.000079
  6638.562  6638.550  0.500  5.940300  215.039  0.565819  -0.000242
  6644.492  6644.480  0.500  5.964412  214.972  0.552168  -0.000047
  6650.595  6650.580  0.500  5.891964  215.184  0.594240  -0.000078
  6656.860  6656.850  0.500  5.813625  215.037  0.642226  0.000060
  6663.299  6663.290  0.500  5.867961  215.116  0.608484  -0.000157
  6669.914  6669.900  0.500  5.890886  214.944  0.594220  -0.000191
  6676.698  6676.690  0.500  5.839062  214.94  0.625813  0.000040
  6683.659  6683.650  0.500  5.842455  214.987  0.623830  -0.000040
  6690.777  6690.770  0.500  5.857534  214.983  0.614483  -0.000007
  6698.077  6698.070  0.500  5.830009  214.921  0.631450  -0.000380
  6705.559  6705.550  0.500  5.752503  214.905  0.682287  -0.000154
  6713.201  6713.190  0.500  5.699507  214.702  0.718741  -0.000027
  6721.016  6721.000  0.500  5.723107  214.608  0.701670  -0.000210
  6729.010  6728.990  0.500  5.744079  214.386  0.686394  -0.000003
  6737.159  6737.150  0.500  5.736643  214.236  0.691034  -0.000172
  6745.473  6745.470  0.500  5.717885  214.058  0.703536  -0.000108
  6753.985  6753.970  0.500  5.695529  213.869  0.718805  -0.000237
  6762.644  6762.650  0.500  5.661452  213.547  0.742602  -0.000293
  6771.488  6771.490  0.500  5.645884  213.316  0.753438  -0.000292
  6780.501  6780.500  0.500  5.608910  213.149  0.781203  0.000055
  6789.689  6789.690  0.500  5.587449  212.683  0.796406  -0.000058
  6799.050  6799.050  0.500  5.579124  212.098  0.800855  -0.000153
  6808.563  6808.570  0.500  5.573460  211.847  0.804452  -0.000195
  6818.262  6818.270  0.500  5.558090  210.931  0.813379  -0.000210
  6828.174  6828.150  0.500  5.524853  209.796  0.836342  0.000162
  6838.185  6838.190  0.500  5.503599  208.718  0.849917  -0.000026
  6848.394  6848.400  0.500  5.483332  208.449  0.866203  -0.000110
  6858.794  6858.790  0.500  5.456444  207.729  0.886733  0.000056
  6869.338  6869.350  0.500  5.441894  207.063  0.896845  0.000078
  6880.069  6880.080  0.500  5.427909  206.211  0.905734  -0.000129
  6890.981  6890.980  0.500  5.409984  205.472  0.918813  -0.000103
  6902.038  6902.050  0.500  5.374898  204.508  0.947156  -0.000148
  6913.286  6913.290  0.500  5.346907  203.31  0.968335  0.000027
  6924.700  6924.710  0.500  5.327589  202.089  0.981296  -0.000203
  6936.288  6936.290  0.500  5.300936  200.809  1.001418  -0.000094
  6948.045  6948.050  0.500  5.275931  199.717  1.021193  -0.000075
  6959.975  6959.980  0.500  5.252929  198.516  1.038668  -0.000105
  6972.076  6972.080  0.500  5.237632  197.655  1.050105  -0.000163
  6984.350  6984.350  0.500  5.207829  196.906  1.077776  0.000058
  6996.788  6996.790  0.500  5.179782  195.779  1.102085  -0.000197
  7009.426  7009.410  0.500  5.153067  194.499  1.124526  0.000062
  7022.175  7022.190  0.500  5.127319  193.229  1.146318  -0.000011
  7035.139  7035.150  0.500  5.104238  191.968  1.165430  0.000106
  7048.264  7048.280  0.500  5.080202  190.776  1.186369  -0.000229
  7061.564  7061.580  0.500  5.054595  189.113  1.206529  -0.000178
  7075.039  7075.050  0.500  5.026887  186.866  1.225688  0.000091
  7088.685  7088.700  0.500  5.004979  187.323  1.255906  -0.000039
  7102.498  7102.510  0.500  4.977138  186.106  1.282972  -0.000053
  7116.487  7116.500  0.500  4.954157  184.769  1.303364  -0.000089
  7130.641  7130.660  0.500  4.932922  183.019  1.318727  -0.000092
  7144.971  7144.990  0.500  4.903934  181.862  1.348935  -0.000226
  7159.476  7159.490  0.500  4.881957  181.072  1.372920  -0.000060
  7174.145  7174.160  0.500  4.856652  179.881  1.398839  -0.000129
  7179.082  7179.090  0.500  4.846842  179.55  1.410029  -0.000038

File: Zn_Hardystonite.001
# XDI/1.0 BlueSky/1.11.0 BMM/2023-2.1-py310-tiled
# Beamline.name: BMM (06BM) -- Beamline for Materials Measurement (NIST)
# Beamline.xray_source: NSLS-II three-pole wiggler
# Beamline.collimation: paraboloid mirror, 5 nm Rh on 30 nm Pt
# Beamline.focusing: not in use
# Beamline.harmonic_rejection: flat mirror, Pt stripe, pitch = 7.0 mrad relative to beam
# Beamline.software: Bluesky 1.11.0, Ophyd 1.8.0, DataBroker 2.0.0b23, Python 3.10.8, 2023-2.1-py310-tiled
# Detector.I0: 10 cm N2
# Detector.I1: 25 cm N2
# Detector.I2: 25 cm N2
# Element.symbol: Zn
# Element.edge: K
# Element.reference: Zn
# Element.reference_material: Zn foil
# Facility.name: NSLS-II
# Facility.energy: 3.0
# Facility.current: 400.0
# Facility.mode: top-off
# Facility.GUP: 315355
# Facility.SAF: 313563
# Facility.cycle: 2024-1
# Mono.name: Si(111)
# Mono.d_spacing: 3.13542
# Mono.encoder_resolution: 0.0000050 deg/ct
# Mono.angle_offset: 16.0892 deg
# Mono.scan_mode: pseudo channel cut
# Mono.scan_type: step
# Mono.direction: forward in energy
# Sample.name: Ca2ZnSi2O7
# Sample.prep: powder on tape
# Sample.x: 113.234 mm
# Sample.y: 81.177 mm
# Sample.SDD_position: 205.000 mm
# Scan.experimenters: Bruce Ravel
# Scan.edge_energy: 9658.6
# Scan.start_time: 2024-03-21T14:09:20
# Scan.end_time: 2024-03-21T14:16:15
# Scan.transient_id: 5340
# Scan.uid: 3fab0e22-d604-4ebd-b8ac-760ec556b88b
# Scan.hdf5file: None
# Scan.plot_hint: ln(I0/It)  --  ln($5/$6)
# Column.1: energy eV
# Column.2: requested_energy eV
# Column.3: measurement_time seconds
# Column.4: xmu
# Column.5: I0 nA
# Column.6: It nA
# Column.7: Ir nA
# ///////////
# sample courtesy Martin Stennett, University of Sheffield
# -----------
# energy  requested_energy  measurement_time  xmu  I0  It  Ir
  9458.636  9458.600  0.500  2.314887  195.827  19.3433  10.0139
  9488.653  9488.600  0.500  2.295502  194.318  19.57  10.201
  9518.626  9518.600  0.500  2.276475  192.844  19.7946  10.3897
  9548.632  9548.600  0.500  2.257873  191.446  20.02  10.5768
  9578.622  9578.600  0.500  2.239681  189.979  20.2314  10.7582
  9609.021  9608.600  0.500  2.222480  188.804  20.455  10.9348
  9630.582  9630.600  0.500  2.212709  187.692  20.5342  11.0104
  9636.568  9636.600  0.500  2.210807  187.24  20.5238  11.0038
  9642.569  9642.600  0.500  2.210261  187.056  20.5148  10.9884
  9648.574  9648.600  0.500  2.212539  186.317  20.3873  10.891
  9649.458  9649.500  0.500  2.213250  186.416  20.3836  10.8798
  9650.372  9650.400  0.500  2.214246  186.536  20.3764  10.8641
  9651.265  9651.300  0.500  2.215327  186.501  20.3506  10.8381
  9652.174  9652.200  0.500  2.216767  186.403  20.3106  10.802
  9653.084  9653.100  0.500  2.218487  186.958  20.3361  10.7962
  9653.990  9654.000  0.500  2.220595  186.898  20.2868  10.7471
  9654.884  9654.900  0.500  2.222964  186.915  20.2406  10.6907
  9655.794  9655.800  0.500  2.226256  186.758  20.1571  10.609
  9656.700  9656.700  0.500  2.230322  186.839  20.0841  10.51
  9657.587  9657.600  0.500  2.235453  186.71  19.9674  10.3761
  9658.482  9658.500  0.500  2.242120  186.731  19.837  10.1947
  9659.392  9659.400  0.500  2.251510  186.584  19.6362  9.897937
  9660.295  9660.300  0.500  2.264794  186.467  19.3649  9.348494
  9661.191  9661.200  0.500  2.284257  186.334  18.9781  8.310030
  9662.106  9662.100  0.500  2.316574  186.321  18.3733  6.894707
  9663.002  9663.000  0.500  2.376255  186.38  17.3143  5.656464
  9663.897  9663.900  0.500  2.491917  186.239  15.4115  4.546715
  9664.797  9664.800  0.500  2.708388  186.194  12.4088  3.413792
  9665.697  9665.700  0.500  3.057000  186.208  8.757106  2.302955
  9666.593  9666.600  0.500  3.436779  186.018  5.983855  1.514647
  9667.510  9667.500  0.500  3.645980  185.861  4.850185  1.169277
  9668.398  9668.400  0.500  3.708252  185.473  4.547855  1.044383
  9669.315  9669.300  0.500  3.816441  185.853  4.089876  0.898630
  9670.196  9670.200  0.500  3.927412  185.827  3.659788  0.772916
  9671.093  9671.100  0.500  3.833546  185.743  4.018144  0.822517
  9671.990  9672.000  0.500  3.569934  185.771  5.230871  1.067514
  9672.903  9672.900  0.500  3.366625  185.649  6.405977  1.346741
  9673.801  9673.800  0.500  3.307415  185.582  6.794275  1.497780
  9674.707  9674.700  0.500  3.352442  185.642  6.497250  1.501296
  9675.601  9675.600  0.500  3.406748  185.597  6.152311  1.468225
  9676.507  9676.500  0.500  3.441476  185.487  5.938794  1.443317
  9677.393  9677.400  0.500  3.485216  185.343  5.680221  1.393347
  9678.295  9678.300  0.500  3.569831  185.301  5.218195  1.284544
  9679.194  9679.200  0.500  3.665903  185.334  4.741039  1.166492
  9680.105  9680.100  0.500  3.671309  185.136  4.710440  1.162837
  9681.008  9681.000  0.500  3.585907  185.009  5.126878  1.279417
  9681.911  9681.900  0.500  3.496885  185.143  5.608282  1.421563
  9682.802  9682.800  0.500  3.419865  184.987  6.052204  1.560744
  9683.596  9683.600  0.500  3.354543  185.004  6.461325  1.686727
  9686.632  9686.610  0.500  3.269222  184.796  7.028891  1.862319
  9689.819  9689.800  0.500  3.231418  184.676  7.294969  1.901811
  9693.176  9693.160  0.500  3.130641  184.466  8.059264  2.027480
  9696.693  9696.680  0.500  3.086583  184.247  8.412276  2.041950
  9700.399  9700.380  0.500  3.136951  184.142  7.994524  1.909990
  9704.268  9704.250  0.500  3.178221  183.907  7.661512  1.859730
  9708.310  9708.300  0.500  3.177272  183.555  7.654116  1.903068
  9712.515  9712.510  0.500  3.176130  183.515  7.661193  1.909735
  9716.904  9716.890  0.500  3.224526  183.102  7.282829  1.792644
  9721.480  9721.450  0.500  3.297906  183.084  6.766862  1.671682
  9726.191  9726.180  0.500  3.354786  182.805  6.382974  1.580659
  9731.087  9731.080  0.500  3.357771  182.541  6.354753  1.561640
  9736.177  9736.150  0.500  3.322847  182.249  6.570097  1.587096
  9741.395  9741.390  0.500  3.315726  182.017  6.608625  1.586264
  9746.820  9746.810  0.500  3.274070  181.56  6.872436  1.686638
  9752.399  9752.390  0.500  3.240611  181.288  7.095599  1.785329
  9758.161  9758.150  0.500  3.205956  181.835  7.367996  1.879269
  9764.091  9764.080  0.500  3.181041  181.45  7.537850  1.938894
  9770.202  9770.180  0.500  3.177476  180.894  7.541611  1.917462
  9776.470  9776.450  0.500  3.191577  180.827  7.433242  1.857220
  9782.915  9782.890  0.500  3.211802  180.3  7.263212  1.782872
  9789.518  9789.500  0.500  3.230404  180.048  7.119388  1.753440
  9796.321  9796.290  0.500  3.222721  179.664  7.158996  1.776210
  9803.275  9803.250  0.500  3.197992  176.803  7.221354  1.812109
  9810.385  9810.370  0.500  3.193967  178.917  7.337197  1.872321
  9817.697  9817.670  0.500  3.203198  178.772  7.263857  1.888070
  9825.170  9825.150  0.500  3.212094  178.325  7.181553  1.871848
  9832.809  9832.790  0.500  3.213114  177.852  7.155173  1.840927
  9840.612  9840.600  0.500  3.197006  177.421  7.253736  1.862044
  9848.607  9848.590  0.500  3.177390  176.967  7.378537  1.893569
  9856.784  9856.750  0.500  3.151713  176.568  7.553352  1.934285
  9865.097  9865.070  0.500  3.132372  176.253  7.687148  1.971421
  9873.588  9873.570  0.500  3.131021  175.808  7.678089  1.987276
  9882.272  9882.250  0.500  3.134512  175.275  7.628146  2.008173
  9891.098  9891.090  0.500  3.133594  174.865  7.617288  2.030550
  9900.114  9900.100  0.500  3.131145  174.402  7.615763  2.035601
  9909.317  9909.290  0.500  3.124054  173.818  7.644238  2.037133
  9918.673  9918.650  0.500  3.116314  173.326  7.681838  2.048237
  9928.206  9928.170  0.500  3.108100  172.297  7.699211  2.058163
  9937.880  9937.870  0.500  3.100417  172.384  7.762526  2.080939
  9947.759  9947.750  0.500  3.090953  171.823  7.810834  2.102684
  9957.803  9957.790  0.500  3.081595  167.006  7.663249  2.079003
  9968.005  9968.000  0.500  3.071792  170.302  7.891449  2.164724
  9978.405  9978.390  0.500  3.061738  170.121  7.962751  2.199862
  9988.970  9988.950  0.500  3.049539  169.51  8.031501  2.228515
  9999.683  9999.680  0.500  3.038825  168.947  8.091036  2.253390
  10010.602  10010.580  0.500  3.029179  166.304  8.041687  2.246305
  10021.667  10021.650  0.500  3.021632  167.71  8.171105  2.289273
  10032.905  10032.890  0.500  3.014864  166.865  8.185153  2.302371
  10044.330  10044.310  0.500  3.008358  166.669  8.228869  2.327645
  10055.922  10055.890  0.500  3.001013  165.889  8.250767  2.353087
  10067.655  10067.650  0.500  2.992165  165.016  8.280294  2.379559
  10079.601  10079.580  0.500  2.981480  164.395  8.337744  2.408488
  10091.730  10091.680  0.500  2.971076  162.104  8.307510  2.413737
  10103.973  10103.950  0.500  2.960073  163.142  8.453205  2.468531
  10116.441  10116.390  0.500  2.949056  162.405  8.508279  2.495653
  10129.043  10129.010  0.500  2.938865  161.508  8.547942  2.519776
  10141.810  10141.790  0.500  2.929124  160.901  8.599158  2.547257
  10154.775  10154.750  0.500  2.919250  160.258  8.649786  2.577816
  10167.922  10167.880  0.500  2.909539  159.243  8.678891  2.603665
  10181.239  10181.180  0.500  2.899944  158.597  8.726991  2.633552
  10194.712  10194.650  0.500  2.890583  157.829  8.766414  2.660442
  10208.330  10208.300  0.500  2.881454  157.093  8.805574  2.688104
  10222.153  10222.110  0.500  2.871730  156.207  8.841473  2.713557
  10236.136  10236.100  0.500  2.861993  155.358  8.879442  2.740154
  10250.277  10250.260  0.500  2.851587  154.534  8.924759  2.767593
  10264.667  10264.590  0.500  2.840858  154.459  9.016620  2.811380
  10279.095  10279.090  0.500  2.830288  153.409  9.050472  2.838601
  10293.728  10293.760  0.500  2.819476  152.511  9.095352  2.869709
  10298.656  10298.690  0.500  2.815842  152.228  9.111510  2.880720