Folder: XAS_Workshops/_static/March2024/BMM

Note: README.md
# XAS_Workshops
Materials related to XAS Workshops at NSLS-II

File: Fe_Petedunnite.001
# XDI/1.0 BlueSky/1.11.0 BMM/2023-2.1-py310-tiled
# Beamline.name: BMM (06BM) -- Beamline for Materials Measurement (NIST)
# Beamline.xray_source: NSLS-II three-pole wiggler
# Beamline.collimation: paraboloid mirror, 5 nm Rh on 30 nm Pt
# Beamline.focusing: not in use
# Beamline.harmonic_rejection: flat mirror, Si stripe, pitch = 7.0 mrad relative to beam
# Beamline.software: Bluesky 1.11.0, Ophyd 1.8.0, DataBroker 2.0.0b23, Python 3.10.8, 2023-2.1-py310-tiled
# Detector.I0: 10 cm N2
# Detector.I1: 25 cm N2
# Detector.I2: 25 cm N2
# Detector.fluorescence: SII Vortex ME4 (4-element silicon drift)
# Detector.deadtime_correction: Xspress3
# Element.symbol: Fe
# Element.edge: K
# Element.reference: Fe
# Element.reference_material: Fe foil
# Facility.name: NSLS-II
# Facility.energy: 3.0
# Facility.current: 399.1
# Facility.mode: top-off
# Facility.GUP: 315355
# Facility.SAF: 313563
# Facility.cycle: 2024-1
# Mono.name: Si(111)
# Mono.d_spacing: 3.13542
# Mono.encoder_resolution: 0.0000050 deg/ct
# Mono.angle_offset: 16.0892 deg
# Mono.scan_mode: pseudo channel cut
# Mono.scan_type: step
# Mono.direction: forward in energy
# Sample.name: Ca(Zn,Mn,Fe,Mg)Si2O6
# Sample.prep: powder on tape
# Sample.x: 113.234 mm
# Sample.y: 81.177 mm
# Sample.SDD_position: 35.000 mm
# Scan.experimenters: Bruce Ravel
# Scan.edge_energy: 7112.0
# Scan.start_time: 2024-03-21T14:37:45
# Scan.end_time: 2024-03-21T14:48:12
# Scan.transient_id: 5354
# Scan.uid: 4acdc768-60fd-4cc5-a6a3-1e3597037b3f
# Scan.hdf5file: 2024/03/21/a46b4428-3f2c-42e3-a019_000000.h5
# Scan.plot_hint: (Fe1+Fe2+Fe3+Fe4)/I0  --  ($8+$9+$10+$11)/$5
# Column.1: energy eV
# Column.2: requested_energy eV
# Column.3: measurement_time seconds
# Column.4: xmu
# Column.5: I0 nA
# Column.6: It nA
# Column.7: Ir nA
# Column.8: Fe1
# Column.9: Fe2
# Column.10: Fe3
# Column.11: Fe4
# ///////////
# sample courtesy Martin Stennett, University of Sheffield
# -----------
# energy  requested_energy  measurement_time  xmu  I0  It  Ir  Fe1  Fe2  Fe3  Fe4
  6912.007  6912.000  1.000  21.6357  481.299  34.5257  4.192353  3328.38  3290.77  1716.37  2077.73
  6952.006  6952.000  1.000  19.1672  479.718  36.062  4.509744  2889.51  2944.54  1481.21  1879.61
  6992.012  6992.000  1.000  17.5511  478.93  37.6825  4.850936  2593.67  2639.34  1418.2  1754.54
  7032.007  7032.000  1.000  16.1161  477.747  39.3242  5.205985  2392.65  2386.18  1313.13  1607.46
  7072.005  7072.000  1.000  15.2477  476.151  40.9387  5.554426  2218.58  2273.14  1254.1  1514.39
  7087.995  7088.000  1.000  14.6464  475.282  41.5866  5.673943  2078.64  2110  1277.14  1495.4
  7096.003  7096.000  1.000  14.6578  474.975  41.9096  5.707989  2129.55  2030.94  1294.16  1507.42
  7102.295  7102.300  1.000  15.1367  474.621  42.1546  5.690660  2168.47  2112.03  1374.25  1529.45
  7103.486  7103.500  1.000  15.3834  474.646  42.216  5.677154  2130.79  2218.14  1366.25  1586.51
  7104.690  7104.700  1.000  15.2034  474.72  42.2765  5.657683  2118.53  2131.06  1419.29  1548.47
  7105.891  7105.900  1.000  15.6837  474.637  42.3223  5.624162  2150.05  2218.14  1460.33  1615.54
  7107.099  7107.100  1.000  16.214  474.249  42.3446  5.566277  2288.35  2285.21  1497.36  1618.54
  7108.300  7108.300  1.000  16.7444  474.098  42.392  5.471414  2348.2  2275.19  1566.43  1748.66
  7109.496  7109.500  1.000  16.8904  474.005  42.4336  5.279546  2294.71  2354.28  1604.46  1752.67
  7110.700  7110.700  1.000  21.1257  473.579  42.4379  4.642510  2764.76  2883.81  2064.9  2291.2
  7111.903  7111.900  1.000  31.2103  473.348  42.4481  3.124011  3782.81  3869.78  3513.24  3607.49
  7113.104  7113.100  1.000  38.0251  472.854  42.4471  2.315846  4477.28  4732.66  4320.02  4450.34
  7114.299  7114.300  1.000  42.3284  472.888  42.5052  1.920005  4966  5217.17  4876.58  4956.84
  7115.503  7115.500  1.000  45.6157  472.74  42.5281  1.725193  5332.6  5630.59  5301.98  5299.19
  7116.706  7116.700  1.000  46.4545  472.584  42.5715  1.651680  5439.58  5446.42  5556.24  5511.44
  7117.898  7117.900  1.000  49.8307  472.274  42.58  1.426652  5785.38  6103.1  5944.64  5700.62
  7119.107  7119.100  1.000  55.146  472.06  42.6036  1.061739  6141.67  6447.48  6576.26  6866.84
  7120.311  7120.300  1.000  64.6774  473.673  42.785  0.766197  7296.65  7715.87  7877.61  7745.8
  7121.511  7121.500  1.000  72.7545  473.259  42.7953  0.550083  8135.4  8531.73  8968.71  8795.91
  7122.722  7122.700  1.000  80.4842  473.119  42.8166  0.431326  8967.16  9521.83  9805.61  9783.99
  7123.939  7123.900  1.000  88.5993  472.834  42.8257  0.363570  9683.97  10606  10874.7  10728
  7125.110  7125.100  1.000  95.1275  472.654  42.8587  0.318073  10379  11136.6  11802.7  11644.1
  7126.301  7126.300  1.000  100.697  472.505  42.8771  0.281628  10658.6  11764.4  12672.7  12484.1
  7127.509  7127.500  1.000  107.633  472.047  42.8714  0.244007  11419.8  12434.2  13540.8  13413.1
  7128.705  7128.700  1.000  115.445  471.576  42.8662  0.202704  12519.9  13237.1  14520.8  14163
  7129.903  7129.900  1.000  120.579  471.36  42.9014  0.167297  12824.6  13805.8  15225.6  14980
  7131.098  7131.100  1.000  121.11  470.742  42.8861  0.151990  12935.2  13917.9  15243.5  14914.9
  7132.304  7132.300  1.000  117.81  470.555  42.9249  0.164843  12580.1  13589.6  14773.1  14493.4
  7133.501  7133.500  1.000  116.531  470.552  42.9892  0.195443  12483.6  13488.4  14594.9  14267.2
  7134.699  7134.700  1.000  112.249  470.516  43.0444  0.225433  12133.6  12949.8  13845.1  13886.7
  7135.906  7135.900  1.000  110.45  470.25  43.0856  0.245085  11772  12797.7  13658.9  13710.5
  7137.001  7137.000  1.000  110.434  470.102  43.1273  0.251048  11982.5  12614.5  13809  13509.3
  7141.065  7141.060  1.000  109.354  469.923  43.2921  0.218137  11600.5  12776.6  13590.8  13420.2
  7145.434  7145.420  1.000  106.611  469.564  43.4548  0.223547  11385.4  12465.3  13288.5  12921.7
  7150.100  7150.080  1.000  106.357  469.604  43.6727  0.181258  11205.9  12296.2  13412.7  13030.9
  7155.063  7155.050  1.000  106.015  469.215  43.8631  0.172970  11276.4  12177.1  13224.5  13065.9
  7160.339  7160.330  1.000  105.35  469.094  44.1023  0.181514  11214.6  12251.2  13028.3  12924.8
  7165.921  7165.910  1.000  106.042  468.507  44.3036  0.193857  11208.1  12166.1  13304.6  13002.9
  7171.801  7171.790  1.000  107.73  469.229  44.6327  0.210024  11544.4  12397.5  13360.8  13247.3
  7177.987  7177.980  1.000  106.711  468.644  44.87  0.258693  11320.1  12186.3  13343.8  13159.2
  7184.492  7184.480  1.000  106.789  468.271  45.13  0.263383  11207.8  12329.5  13322.9  13146.2
  7191.293  7191.280  1.000  109.343  467.342  45.3383  0.215719  11345  12731  13470  13554.8
  7198.389  7198.380  1.000  109.391  467.637  45.6986  0.216341  11566.2  12617.9  13588.3  13382.7
  7205.799  7205.790  1.000  106.631  466.99  45.9856  0.290563  11262.9  12282.6  13316  12934.2
  7213.519  7213.510  1.000  109.415  466.363  46.2905  0.223746  11487.9  12387.8  13781.6  13369.8
  7221.528  7221.520  1.000  114.085  465.247  46.5295  0.144547  12077.8  12837.4  14350.3  13812.3
  7229.857  7229.850  1.000  108.254  464.722  46.8785  0.233941  11460.2  12218.7  13393.3  13235.7
  7238.487  7238.480  1.000  104.146  464.253  47.2529  0.339752  10841.1  11924.4  12860.7  12724.1
  7247.420  7247.410  1.000  107.254  454.65  46.6648  0.292845  11128.1  11890.2  13039.7  12704.9
  7256.666  7256.650  1.000  108.262  462.234  47.891  0.312876  11242.5  12267.9  13505.5  13026.6
  7266.199  7266.190  1.000  109.058  461.39  48.2459  0.289316  11433.2  12170.9  13437.5  13277
  7276.054  7276.040  1.000  111.696  462.373  48.7966  0.249326  11598.2  12546.4  13979.3  13521.4
  7286.204  7286.190  1.000  113.014  461.215  49.1532  0.223149  11828.2  12468.4  14044.5  13782.8
  7296.664  7296.650  1.000  110.564  460.726  49.6164  0.276203  11438.3  12460.6  13640.2  13400.5
  7307.421  7307.410  1.000  108.041  460.195  50.0693  0.357922  10949.7  12525.6  13180.6  13064.1
  7318.479  7318.470  1.000  107.289  459.113  50.477  0.366818  11025  11879.9  13342.8  13010.1
  7329.857  7329.850  1.000  108.386  458.245  50.948  0.376014  11193.1  12050.2  13455  12969.1
  7341.531  7341.520  1.000  108.188  449.223  50.4907  0.389987  10779.5  11905.9  13094.4  12820.8
  7353.508  7353.500  1.000  112.399  456.333  51.8697  0.330286  11479.8  12482.9  13873.7  13454.9
  7365.798  7365.790  1.000  113.48  455.718  52.3879  0.297000  11641.6  12473  14078  13522.1
  7378.390  7378.380  1.000  111.218  454.271  52.8616  0.373771  11252.4  12294.9  13790.9  13184.8
  7391.283  7391.270  1.000  109.562  453.21  53.357  0.459596  10896.5  12078.8  13597.7  13081.7
  7404.478  7404.470  1.000  109.902  452.693  53.9537  0.452764  11124.5  12023.8  13453.7  13150
  7417.999  7417.980  1.000  109.844  452.317  54.5477  0.457965  10978.4  12090.9  13586.9  13027.9
  7431.795  7431.790  1.000  110.436  451.381  55.1175  0.486671  11053.4  12066  13617  13112.1
  7445.901  7445.900  1.000  112.473  439.54  54.3783  0.444391  10992.2  11915.6  13409.6  13119
  7460.333  7460.320  1.000  112.856  448.478  56.1565  0.451089  11125.3  12384.7  13582.3  13520.9
  7475.063  7475.050  1.000  112.792  447.006  56.6952  0.506665  11231  12174.5  13705.4  13307.6
  7490.095  7490.080  1.000  112.593  445.08  57.1983  0.565281  10965.3  12236.6  13406.1  13504.9
  7505.413  7505.410  1.000  112.544  443.076  57.6832  0.581474  11077  12151.7  13562.4  13074.6
  7521.044  7521.050  1.000  112.764  440.754  58.1446  0.597563  11024.4  12003.5  13400.3  13272.9
  7536.977  7536.990  1.000  115.373  438.695  58.629  0.607396  11146.4  12201.9  13795.9  13469.2
  7553.239  7553.240  1.000  114.151  435.992  59.0486  0.625678  10955.5  12037.7  13534.6  13241
  7569.790  7569.790  1.000  114.567  433.779  59.5336  0.626791  10930.2  11888.6  13719.9  13157.9
  7586.650  7586.650  1.000  116.387  431.346  60.0006  0.686659  11110.2  12146.9  13631.8  13314.2
  7603.809  7603.810  1.000  115.951  426.38  60.1051  0.709061  10941.9  11960.8  13460.6  13075.9
  7621.275  7621.280  1.000  117.532  424.45  60.6359  0.744053  11043.4  12088.1  13449.8  13305.3
  7639.053  7639.050  1.000  118.139  422.186  61.142  0.773369  10820.7  12311.5  13610.1  13134.2
  7657.131  7657.130  1.000  117.986  419.076  61.4994  0.811899  10901.9  11865.9  13527.1  13150.3
  7675.500  7675.510  1.000  119.422  416.078  61.9065  0.823765  10907.9  12076.4  13539.1  13165.5
  7694.198  7694.200  1.000  120.595  413.333  62.3446  0.852507  10990.9  12028.3  13762.5  13064.3
  7713.188  7713.190  1.000  120.498  410.13  62.7198  0.896716  10887.7  11866.1  13425.2  13240.6
  7732.494  7732.490  1.000  120.53  407.025  63.104  0.938537  10786.9  11932.4  13385.2  12954.3
  7752.076  7752.090  1.000  121.341  404.273  63.5554  0.973512  10821.7  11766.3  13426.4  13040.5

File: Mn_Bixbyite.001
# XDI/1.0 BlueSky/1.11.0 BMM/2023-2.1-py310-tiled
# Beamline.name: BMM (06BM) -- Beamline for Materials Measurement (NIST)
# Beamline.xray_source: NSLS-II three-pole wiggler
# Beamline.collimation: paraboloid mirror, 5 nm Rh on 30 nm Pt
# Beamline.focusing: not in use
# Beamline.harmonic_rejection: flat mirror, Si stripe, pitch = 7.0 mrad relative to beam
# Beamline.software: Bluesky 1.11.0, Ophyd 1.8.0, DataBroker 2.0.0b23, Python 3.10.8, 2023-2.1-py310-tiled
# Detector.I0: 10 cm N2
# Detector.I1: 25 cm N2
# Detector.I2: 25 cm N2
# Element.symbol: Mn
# Element.edge: K
# Element.reference: Mn
# Element.reference_material: Mn metal powder
# Facility.name: NSLS-II
# Facility.energy: 3.0
# Facility.current: 400.9
# Facility.mode: top-off
# Facility.GUP: 315355
# Facility.SAF: 313563
# Facility.cycle: 2024-1
# Mono.name: Si(111)
# Mono.d_spacing: 3.13542
# Mono.encoder_resolution: 0.0000050 deg/ct
# Mono.angle_offset: 16.0892 deg
# Mono.scan_mode: pseudo channel cut
# Mono.scan_type: step
# Mono.direction: forward in energy
# Sample.name: Mn2O3
# Sample.prep: PEG pellet
# Sample.x: 90.051 mm
# Sample.y: 81.516 mm
# Sample.SDD_position: 205.000 mm
# Scan.experimenters: XAS course 2024
# Scan.edge_energy: 6539.0
# Scan.start_time: 2024-03-21T10:28:02
# Scan.end_time: 2024-03-21T10:34:47
# Scan.transient_id: 5297
# Scan.uid: 843205a1-829c-4f09-b925-a2a63e136868
# Scan.hdf5file: None
# Scan.plot_hint: ln(I0/It)  --  ln($5/$6)
# Column.1: energy eV
# Column.2: requested_energy eV
# Column.3: measurement_time seconds
# Column.4: xmu
# Column.5: I0 nA
# Column.6: It nA
# Column.7: Ir nA
# ///////////
# Welcome to BMM
# -----------
# energy  requested_energy  measurement_time  xmu  I0  It  Ir
  6339.034  6339.000  0.500  5.522697  211.162  0.843603  0.004341
  6369.018  6369.000  0.500  5.458900  211.485  0.900553  0.004557
  6399.011  6399.000  0.500  5.398613  212.11  0.959342  0.004953
  6429.008  6429.000  0.500  5.337373  212.456  1.021593  0.005576
  6459.000  6459.000  0.500  5.287206  211.075  1.067165  0.006230
  6489.009  6489.000  0.500  5.223588  213.195  1.148688  0.006657
  6511.007  6511.000  0.500  5.182199  213.225  1.197395  0.006943
  6517.001  6517.000  0.500  5.172608  213.291  1.209309  0.006892
  6523.001  6523.000  0.500  5.163521  213.536  1.221752  0.006882
  6528.999  6529.000  0.500  5.152609  213.319  1.233901  0.006704
  6529.885  6529.900  0.500  5.153063  213.459  1.234150  0.006669
  6530.786  6530.800  0.500  5.151320  213.373  1.235803  0.006592
  6531.686  6531.700  0.500  5.149905  213.377  1.237578  0.006705
  6532.587  6532.600  0.500  5.149907  213.435  1.237910  0.006598
  6533.487  6533.500  0.500  5.148243  213.398  1.239758  0.006232
  6534.396  6534.400  0.500  5.146455  213.256  1.241150  0.006137
  6535.298  6535.300  0.500  5.146330  213.271  1.241391  0.005927
  6536.194  6536.200  0.500  5.145925  213.266  1.241865  0.005404
  6537.095  6537.100  0.500  5.147801  213.323  1.239869  0.004703
  6537.997  6538.000  0.500  5.152919  213.256  1.233152  0.002661
  6538.897  6538.900  0.500  5.172210  213.327  1.209994  0.001134
  6539.796  6539.800  0.500  5.185997  213.332  1.193452  0.000648
  6540.702  6540.700  0.500  5.185919  213.267  1.193183  0.000450
  6541.600  6541.600  0.500  5.195895  213.364  1.181879  0.000299
  6542.495  6542.500  0.500  5.204052  213.458  1.172794  0.000331
  6543.399  6543.400  0.500  5.207383  213.23  1.167643  0.000304
  6544.300  6544.300  0.500  5.216230  213.255  1.157498  0.000502
  6545.199  6545.200  0.500  5.233819  213.355  1.137846  0.000056
  6546.097  6546.100  0.500  5.273353  213.305  1.093483  0.000213
  6547.004  6547.000  0.500  5.342797  213.2  1.019622  0.000032
  6547.899  6547.900  0.500  5.426244  213.204  0.938012  0.000099
  6548.799  6548.800  0.500  5.499139  213.157  0.871874  0.000253
  6549.703  6549.700  0.500  5.588412  213.23  0.797684  -0.000261
  6550.606  6550.600  0.500  5.666792  213.357  0.737990  -0.000063
  6551.496  6551.500  0.500  5.738488  213.146  0.686250  0.000038
  6552.399  6552.400  0.500  5.829921  213.092  0.626129  -0.000102
  6553.303  6553.300  0.500  5.937277  213.06  0.562308  -0.000046
  6554.199  6554.200  0.500  6.030505  213.208  0.512612  -0.000230
  6555.096  6555.100  0.500  6.091949  213.007  0.481608  -0.000081
  6556.004  6556.000  0.500  6.125591  212.96  0.465572  -0.000335
  6556.903  6556.900  0.500  6.136851  213.044  0.460541  -0.000183
  6557.801  6557.800  0.500  6.140573  213.637  0.460108  -0.000260
  6558.702  6558.700  0.500  6.135715  213.457  0.461958  -0.000097
  6559.605  6559.600  0.500  6.111573  213.61  0.473586  -0.000072
  6560.504  6560.500  0.500  6.071510  213.182  0.491957  -0.000178
  6561.406  6561.400  0.500  6.039211  213.124  0.507967  0.000013
  6562.308  6562.300  0.500  6.029844  213.654  0.514024  -0.000184
  6563.206  6563.200  0.500  6.021491  213.571  0.518133  0.000088
  6564.002  6564.000  0.500  6.012009  213.489  0.522870  0.000001
  6567.010  6567.010  0.500  5.963664  213.39  0.548515  -0.000307
  6570.202  6570.200  0.500  5.941273  213.376  0.560898  -0.000082
  6573.564  6573.560  0.500  5.938240  213.337  0.562498  -0.000137
  6577.083  6577.080  0.500  5.876749  213.403  0.598356  -0.000161
  6580.790  6580.780  0.500  5.801758  213.541  0.645371  0.000055
  6584.664  6584.650  0.500  5.750147  213.447  0.679256  -0.000140
  6588.710  6588.700  0.500  5.735458  213.327  0.688920  -0.000179
  6592.922  6592.910  0.500  5.746458  213.355  0.681471  -0.000343
  6597.299  6597.290  0.500  5.792676  213.429  0.650918  0.000153
  6601.863  6601.850  0.500  5.824694  213.117  0.629486  -0.000128
  6606.585  6606.580  0.500  5.827451  213.325  0.628364  0.000101
  6611.491  6611.480  0.500  5.810240  213.43  0.639589  -0.000342
  6616.566  6616.550  0.500  5.782233  213.349  0.657504  -0.000016
  6621.792  6621.790  0.500  5.767660  213.515  0.667675  -0.000138
  6627.216  6627.210  0.500  5.772530  213.488  0.664348  0.000034
  6632.801  6632.790  0.500  5.768813  213.29  0.666202  -0.000014
  6638.562  6638.550  0.500  5.754357  213.462  0.676451  -0.000038
  6644.489  6644.480  0.500  5.748299  213.453  0.680530  0.000110
  6650.587  6650.580  0.500  5.728705  213.378  0.693752  -0.000001
  6656.860  6656.850  0.500  5.686616  213.335  0.723429  -0.000237
  6663.301  6663.290  0.500  5.651426  213.589  0.750232  -0.000197
  6669.912  6669.900  0.500  5.636378  213.506  0.761312  0.000037
  6676.702  6676.690  0.500  5.643163  213.33  0.755540  -0.000012
  6683.657  6683.650  0.500  5.650218  213.299  0.750120  -0.000133
  6690.773  6690.770  0.500  5.647051  213.15  0.751972  -0.000021
  6698.096  6698.070  0.500  5.633258  213.119  0.762305  0.000103
  6705.563  6705.550  0.500  5.608112  213.151  0.781834  -0.000008
  6713.203  6713.190  0.500  5.577470  213.009  0.805625  -0.000067
  6721.014  6721.000  0.500  5.564609  212.982  0.815950  -0.000142
  6729.012  6728.990  0.500  5.551198  212.793  0.826234  -0.000242
  6737.164  6737.150  0.500  5.538859  212.705  0.836146  -0.000103
  6745.475  6745.470  0.500  5.527334  212.412  0.844673  -0.000008
  6753.985  6753.970  0.500  5.512242  212.189  0.856615  -0.000053
  6762.652  6762.650  0.500  5.483918  211.936  0.880176  0.000080
  6771.490  6771.490  0.500  5.453862  211.723  0.906119  -0.000276
  6780.497  6780.500  0.500  5.430506  211.431  0.926253  0.000012
  6789.686  6789.690  0.500  5.417298  210.946  0.936415  -0.000106
  6799.060  6799.050  0.500  5.402870  210.546  0.948223  0.000025
  6808.565  6808.570  0.500  5.391990  210.452  0.958169  -0.000222
  6818.260  6818.270  0.500  5.373617  209.928  0.973505  0.000165
  6828.148  6828.150  0.500  5.348585  208.816  0.992893  -0.000225
  6838.177  6838.190  0.500  5.327346  207.606  1.008329  -0.000190
  6848.388  6848.400  0.500  5.308341  207.659  1.027938  -0.000109
  6858.806  6858.790  0.500  5.286633  207.015  1.047240  -0.000019
  6869.356  6869.350  0.500  5.264642  206.324  1.066952  0.000084
  6880.067  6880.080  0.500  5.240716  205.404  1.087917  0.000052
  6890.971  6890.980  0.500  5.221781  204.699  1.104905  -0.000091
  6902.036  6902.050  0.500  5.200133  203.796  1.124107  -0.000011
  6913.282  6913.290  0.500  5.174630  202.575  1.146234  -0.000000
  6924.690  6924.710  0.500  5.150430  201.359  1.167258  0.000058
  6936.280  6936.290  0.500  5.126506  200.329  1.189408  0.000007
  6948.041  6948.050  0.500  5.103767  199.123  1.209439  0.000013
  6959.986  6959.980  0.500  5.081681  197.983  1.229369  -0.000088
  6972.098  6972.080  0.500  5.057116  196.736  1.252007  -0.000206
  6984.361  6984.350  0.500  5.034617  195.533  1.272664  -0.000308
  6996.803  6996.790  0.500  5.013157  194.466  1.293178  -0.000202
  7009.426  7009.410  0.500  4.988179  193.411  1.318689  0.000207
  7022.181  7022.190  0.500  4.962360  192.225  1.344882  0.000149
  7035.139  7035.150  0.500  4.934931  191.017  1.373598  -0.000134
  7048.259  7048.280  0.500  4.912062  189.729  1.395892  -0.000090
  7061.564  7061.580  0.500  4.887306  188.114  1.418704  0.000060
  7075.026  7075.050  0.500  4.866430  185.808  1.430873  -0.000082
  7088.685  7088.700  0.500  4.846424  186.344  1.463994  -0.000096
  7102.491  7102.510  0.500  4.820766  185.279  1.493460  0.000062
  7116.484  7116.500  0.500  4.796740  183.802  1.517584  0.000087
  7130.641  7130.660  0.500  4.774024  182.065  1.537782  0.000035
  7144.977  7144.990  0.500  4.751282  181.048  1.564364  -0.000076
  7159.470  7159.490  0.500  4.726876  180.164  1.595191  0.000065
  7174.141  7174.160  0.500  4.702626  178.932  1.623164  0.000018
  7179.075  7179.090  0.500  4.692496  178.566  1.636341  0.000078