Folder: XAS_Workshops/_static/March2024/BMM (part 3)

File: Zn_Willemite.001
# XDI/1.0 BlueSky/1.11.0 BMM/2023-2.1-py310-tiled
# Beamline.name: BMM (06BM) -- Beamline for Materials Measurement (NIST)
# Beamline.xray_source: NSLS-II three-pole wiggler
# Beamline.collimation: paraboloid mirror, 5 nm Rh on 30 nm Pt
# Beamline.focusing: not in use
# Beamline.harmonic_rejection: flat mirror, Pt stripe, pitch = 7.0 mrad relative to beam
# Beamline.software: Bluesky 1.11.0, Ophyd 1.8.0, DataBroker 2.0.0b23, Python 3.10.8, 2023-2.1-py310-tiled
# Detector.I0: 10 cm N2
# Detector.I1: 25 cm N2
# Detector.I2: 25 cm N2
# Element.symbol: Zn
# Element.edge: K
# Element.reference: Zn
# Element.reference_material: Zn foil
# Facility.name: NSLS-II
# Facility.energy: 3.0
# Facility.current: 399.3
# Facility.mode: top-off
# Facility.GUP: 315355
# Facility.SAF: 313563
# Facility.cycle: 2024-1
# Mono.name: Si(111)
# Mono.d_spacing: 3.13542
# Mono.encoder_resolution: 0.0000050 deg/ct
# Mono.angle_offset: 16.0892 deg
# Mono.scan_mode: pseudo channel cut
# Mono.scan_type: step
# Mono.direction: forward in energy
# Sample.name: Zn2SiO4
# Sample.prep: powder on tape
# Sample.x: 113.234 mm
# Sample.y: 81.177 mm
# Sample.SDD_position: 205.000 mm
# Scan.experimenters: Bruce Ravel
# Scan.edge_energy: 9658.6
# Scan.start_time: 2024-03-21T14:02:01
# Scan.end_time: 2024-03-21T14:08:50
# Scan.transient_id: 5335
# Scan.uid: 63e0d858-4bc8-40ba-a151-9945ebe2e8cd
# Scan.hdf5file: None
# Scan.plot_hint: ln(I0/It)  --  ln($5/$6)
# Column.1: energy eV
# Column.2: requested_energy eV
# Column.3: measurement_time seconds
# Column.4: xmu
# Column.5: I0 nA
# Column.6: It nA
# Column.7: Ir nA
# ///////////
# sample courtesy Martin Stennett, University of Sheffield
# -----------
# energy  requested_energy  measurement_time  xmu  I0  It  Ir
  9458.636  9458.600  0.500  2.323474  196.737  19.267  9.933970
  9488.649  9488.600  0.500  2.305275  195.185  19.466  10.1097
  9518.638  9518.600  0.500  2.287193  193.729  19.6734  10.2839
  9548.616  9548.600  0.500  2.269798  193.115  19.9552  10.4968
  9578.626  9578.600  0.500  2.254026  191.504  20.1033  10.6474
  9608.606  9608.600  0.500  2.240721  190.186  20.2323  10.7778
  9630.586  9630.600  0.500  2.239143  189.059  20.1442  10.7662
  9636.568  9636.600  0.500  2.242470  188.473  20.0151  10.6999
  9642.569  9642.600  0.500  2.249998  188.222  19.8385  10.5996
  9648.574  9648.600  0.500  2.266762  187.559  19.44  10.3568
  9649.458  9649.500  0.500  2.270842  187.65  19.3702  10.3115
  9650.376  9650.400  0.500  2.275497  187.76  19.2915  10.2612
  9651.277  9651.300  0.500  2.280844  187.697  19.1822  10.1869
  9652.178  9652.200  0.500  2.287361  187.618  19.0496  10.1058
  9653.084  9653.100  0.500  2.294735  187.618  18.9096  10.0139
  9653.986  9654.000  0.500  2.303416  187.47  18.7314  9.900567
  9654.892  9654.900  0.500  2.313847  187.385  18.5287  9.766206
  9655.778  9655.800  0.500  2.326723  187.332  18.2864  9.602691
  9656.688  9656.700  0.500  2.342821  187.183  17.9801  9.396423
  9657.591  9657.600  0.500  2.362607  187.266  17.6357  9.147869
  9658.494  9658.500  0.500  2.388514  187.189  17.1776  8.816302
  9659.400  9659.400  0.500  2.424124  187.135  16.5718  8.339302
  9660.299  9660.300  0.500  2.473633  186.998  15.7598  7.613586
  9661.199  9661.200  0.500  2.548039  187.023  14.6318  6.427521
  9662.090  9662.100  0.500  2.666278  186.791  12.984  4.935522
  9662.993  9663.000  0.500  2.887237  186.885  10.4151  3.445494
  9663.889  9663.900  0.500  3.270425  186.852  7.098565  2.125979
  9664.789  9664.800  0.500  3.917611  186.629  3.711774  1.039826
  9665.701  9665.700  0.500  4.886205  186.732  1.409834  0.376650
  9666.597  9666.600  0.500  5.915881  186.676  0.503331  0.129329
  9667.506  9667.500  0.500  6.505580  186.225  0.278420  0.067967
  9668.390  9668.400  0.500  6.543182  186.13  0.268008  0.062099
  9669.291  9669.300  0.500  6.467753  186.494  0.289571  0.064085
  9670.196  9670.200  0.500  6.426500  186.508  0.301789  0.064108
  9671.105  9671.100  0.500  6.363896  186.386  0.321077  0.066455
  9671.998  9672.000  0.500  6.275799  186.313  0.350508  0.071938
  9672.912  9672.900  0.500  6.240661  186.213  0.362849  0.076499
  9673.801  9673.800  0.500  6.286320  186.19  0.346611  0.076456
  9674.703  9674.700  0.500  6.324835  186.191  0.333516  0.077225
  9675.592  9675.600  0.500  6.263214  186.216  0.354762  0.084933
  9676.499  9676.500  0.500  6.128749  186.066  0.405495  0.098858
  9677.397  9677.400  0.500  5.998934  186.066  0.461703  0.113477
  9678.307  9678.300  0.500  5.918285  185.999  0.500301  0.123539
  9679.206  9679.200  0.500  5.850448  185.868  0.535043  0.132333
  9680.109  9680.100  0.500  5.757179  185.795  0.587115  0.145709
  9681.003  9681.000  0.500  5.667389  185.769  0.642182  0.161062
  9681.903  9681.900  0.500  5.617140  185.738  0.675161  0.171920
  9682.790  9682.800  0.500  5.622335  185.799  0.671884  0.173760
  9683.600  9683.600  0.500  5.659408  185.619  0.646804  0.169697
  9686.640  9686.610  0.500  5.638428  185.574  0.660358  0.175575
  9689.823  9689.800  0.500  5.338691  185.349  0.890076  0.233055
  9693.180  9693.160  0.500  5.094023  185.849  1.139866  0.287854
  9696.697  9696.680  0.500  5.016895  185.711  1.230349  0.299523
  9700.391  9700.380  0.500  5.037311  185.41  1.203531  0.288160
  9704.268  9704.250  0.500  5.073821  185.2  1.159070  0.282063
  9708.310  9708.300  0.500  5.165334  184.924  1.056129  0.263523
  9712.528  9712.510  0.500  5.350791  184.973  0.877584  0.219609
  9716.900  9716.890  0.500  5.553706  184.584  0.714910  0.176884
  9721.455  9721.450  0.500  5.649342  184.395  0.649039  0.160994
  9726.195  9726.180  0.500  5.655468  184.058  0.643896  0.159949
  9731.091  9731.080  0.500  5.642291  183.87  0.651769  0.160739
  9736.152  9736.150  0.500  5.599389  183.627  0.679442  0.164729
  9741.403  9741.390  0.500  5.539026  183.306  0.720457  0.173390
  9746.820  9746.810  0.500  5.483040  183.025  0.760774  0.187092
  9752.415  9752.390  0.500  5.409753  182.875  0.817954  0.206444
  9758.169  9758.150  0.500  5.347778  182.502  0.868473  0.222079
  9764.091  9764.080  0.500  5.314206  182.22  0.896736  0.231486
  9770.190  9770.180  0.500  5.304599  181.838  0.903497  0.230318
  9776.461  9776.450  0.500  5.348737  181.791  0.864261  0.216618
  9782.903  9782.890  0.500  5.375069  181.103  0.838615  0.206526
  9789.510  9789.500  0.500  5.382957  180.894  0.831068  0.205221
  9796.300  9796.290  0.500  5.394918  180.534  0.819553  0.203923
  9803.267  9803.250  0.500  5.416853  177.693  0.789155  0.198622
  9810.393  9810.370  0.500  5.421512  179.87  0.795106  0.203272
  9817.688  9817.670  0.500  5.414456  179.459  0.798907  0.207994
  9825.174  9825.150  0.500  5.400514  179.171  0.808824  0.211404
  9832.818  9832.790  0.500  5.383956  178.701  0.820172  0.211369
  9840.629  9840.600  0.500  5.367496  178.297  0.831899  0.214170
  9848.599  9848.590  0.500  5.325060  177.998  0.866502  0.222513
  9856.776  9856.750  0.500  5.301046  177.448  0.884821  0.226618
  9865.105  9865.070  0.500  5.275619  176.94  0.905011  0.232520
  9873.592  9873.570  0.500  5.263717  176.628  0.914230  0.237120
  9882.263  9882.250  0.500  5.264176  176.122  0.911192  0.239991
  9891.106  9891.090  0.500  5.273822  175.682  0.900190  0.240202
  9900.118  9900.100  0.500  5.282327  175.192  0.890081  0.238311
  9909.308  9909.290  0.500  5.275484  174.787  0.894121  0.238490
  9918.678  9918.650  0.500  5.251813  174.192  0.912422  0.243450
  9928.184  9928.170  0.500  5.232432  173.418  0.926143  0.247212
  9937.872  9937.870  0.500  5.226784  173.391  0.931243  0.249368
  9947.771  9947.750  0.500  5.215171  172.847  0.939164  0.252963
  9957.816  9957.790  0.500  5.192600  167.966  0.933479  0.253179
  9968.014  9968.000  0.500  5.171663  171.436  0.972923  0.266665
  9978.405  9978.390  0.500  5.155508  171.085  0.986739  0.272619
  9988.962  9988.950  0.500  5.137929  170.574  1.001243  0.277472
  9999.701  9999.680  0.500  5.117256  169.958  1.018463  0.283352
  10010.615  10010.580  0.500  5.105945  167.317  1.014042  0.282969
  10021.658  10021.650  0.500  5.098206  168.553  1.029472  0.288100
  10032.914  10032.890  0.500  5.091136  168.018  1.033485  0.290074
  10044.339  10044.310  0.500  5.080281  167.714  1.042873  0.294512
  10055.922  10055.890  0.500  5.064928  166.901  1.053872  0.299761
  10067.682  10067.650  0.500  5.051895  166.135  1.062801  0.304851
  10079.614  10079.580  0.500  5.034082  165.543  1.078045  0.310726
  10091.726  10091.680  0.500  5.013182  163.461  1.086967  0.314905
  10104.008  10103.950  0.500  4.995850  164.673  1.114172  0.324679
  10116.419  10116.390  0.500  4.980483  163.876  1.125952  0.329718
  10129.038  10129.010  0.500  4.965237  163.154  1.138212  0.334200
  10141.814  10141.790  0.500  4.948659  162.422  1.152046  0.340035
  10154.771  10154.750  0.500  4.932521  161.573  1.164668  0.345996
  10167.895  10167.880  0.500  4.918206  160.856  1.176221  0.351695
  10181.216  10181.180  0.500  4.904617  160.216  1.187564  0.357178
  10194.680  10194.650  0.500  4.890272  159.366  1.198336  0.362155
  10208.294  10208.300  0.500  4.876133  158.469  1.208554  0.367607
  10222.189  10222.110  0.500  4.861810  157.741  1.220356  0.373371
  10236.082  10236.100  0.500  4.845897  156.905  1.233362  0.379078
  10250.227  10250.260  0.500  4.828571  156.044  1.248030  0.385491
  10264.640  10264.590  0.500  4.811240  155.342  1.264134  0.392754
  10279.058  10279.090  0.500  4.793980  154.323  1.277710  0.399378
  10293.788  10293.760  0.500  4.777385  153.533  1.292441  0.406333
  10298.669  10298.690  0.500  4.772107  153.242  1.296815  0.408594