Folder: XAS_Workshops/docs/_static/March2024/BMM (part 2)

File: Zn_Petedunnite.001
# XDI/1.0 BlueSky/1.11.0 BMM/2023-2.1-py310-tiled
# Beamline.name: BMM (06BM) -- Beamline for Materials Measurement (NIST)
# Beamline.xray_source: NSLS-II three-pole wiggler
# Beamline.collimation: paraboloid mirror, 5 nm Rh on 30 nm Pt
# Beamline.focusing: not in use
# Beamline.harmonic_rejection: flat mirror, Pt stripe, pitch = 7.0 mrad relative to beam
# Beamline.software: Bluesky 1.11.0, Ophyd 1.8.0, DataBroker 2.0.0b23, Python 3.10.8, 2023-2.1-py310-tiled
# Detector.I0: 10 cm N2
# Detector.I1: 25 cm N2
# Detector.I2: 25 cm N2
# Detector.fluorescence: SII Vortex ME4 (4-element silicon drift)
# Detector.deadtime_correction: Xspress3
# Element.symbol: Zn
# Element.edge: K
# Element.reference: Zn
# Element.reference_material: Zn foil
# Facility.name: NSLS-II
# Facility.energy: 3.0
# Facility.current: 400.5
# Facility.mode: top-off
# Facility.GUP: 315355
# Facility.SAF: 313563
# Facility.cycle: 2024-1
# Mono.name: Si(111)
# Mono.d_spacing: 3.13542
# Mono.encoder_resolution: 0.0000050 deg/ct
# Mono.angle_offset: 16.0892 deg
# Mono.scan_mode: pseudo channel cut
# Mono.scan_type: step
# Mono.direction: forward in energy
# Sample.name: Ca(Zn,Mn,Fe,Mg)Si2O6
# Sample.prep: powder on tape
# Sample.x: 113.234 mm
# Sample.y: 81.177 mm
# Sample.SDD_position: 53.000 mm
# Scan.experimenters: Bruce Ravel
# Scan.edge_energy: 9658.6
# Scan.start_time: 2024-03-21T14:17:02
# Scan.end_time: 2024-03-21T14:26:59
# Scan.transient_id: 5346
# Scan.uid: 29689920-dc6b-424a-b1d8-14e98cce49f8
# Scan.hdf5file: 2024/03/21/e36c9c17-91e3-42f2-855f_000000.h5
# Scan.plot_hint: (Zn1+Zn2+Zn3+Zn4)/I0  --  ($8+$9+$10+$11)/$5
# Column.1: energy eV
# Column.2: requested_energy eV
# Column.3: measurement_time seconds
# Column.4: xmu
# Column.5: I0 nA
# Column.6: It nA
# Column.7: Ir nA
# Column.8: Zn1
# Column.9: Zn2
# Column.10: Zn3
# Column.11: Zn4
# ///////////
# sample courtesy Martin Stennett, University of Sheffield
# -----------
# energy  requested_energy  measurement_time  xmu  I0  It  Ir  Zn1  Zn2  Zn3  Zn4
  9458.629  9458.600  1.000  26.5969  394.12  131.768  68.5061  3680.58  3531.32  1443.94  1826.52
  9498.625  9498.600  1.000  23.7117  390.252  132.102  69.3049  3232.87  3178.8  1255.69  1586.2
  9538.631  9538.600  1.000  21.1803  386.146  132.281  70.0322  2870.97  2724.16  1176.6  1406.96
  9578.614  9578.600  1.000  18.9897  382.444  132.562  70.7778  2556.59  2428.74  1053.44  1223.72
  9618.594  9618.600  1.000  17.4912  378.519  132.719  71.3797  2350.44  2169.38  947.302  1153.63
  9634.582  9634.600  1.000  16.7625  376.477  132.581  71.4215  2244.67  2026.17  902.247  1137.62
  9642.573  9642.600  1.000  16.8219  376.06  132.743  71.4263  2159.82  2054.22  920.277  1191.71
  9648.863  9648.900  1.000  17.6626  374.346  132.361  70.999  2258.49  2105.29  994.374  1253.78
  9650.070  9650.100  1.000  17.1316  374.899  132.589  71.0367  2187.36  2039.19  999.383  1196.7
  9651.273  9651.300  1.000  17.7182  374.638  132.546  70.9155  2218.37  2162.38  1010.4  1246.78
  9652.476  9652.500  1.000  17.4605  374.703  132.627  70.8015  2160  2114.31  1006.4  1261.8
  9653.696  9653.700  1.000  18.0052  374.517  132.605  70.6028  2267.62  2137.35  1063.48  1274.82
  9654.908  9654.900  1.000  18.3901  375.372  132.931  70.5113  2287.23  2238.52  1100.54  1276.83
  9656.096  9656.100  1.000  18.9462  375.131  132.895  70.1268  2461.39  2198.46  1134.58  1312.88
  9657.289  9657.300  1.000  19.6563  375.012  132.903  69.5697  2421.96  2303.64  1207.69  1438.07
  9658.498  9658.500  1.000  20.437  374.881  132.897  68.6118  2428.65  2452.87  1283.79  1496.15
  9659.691  9659.700  1.000  21.5692  374.772  132.925  66.5692  2726.61  2332.66  1413.97  1610.3
  9660.900  9660.900  1.000  23.0703  374.588  132.892  60.8909  2692  2596.1  1571.2  1782.56
  9662.106  9662.100  1.000  26.6976  374.209  132.793  50.0492  3099.21  2911.61  1853.6  2126.07
  9663.304  9663.300  1.000  34.903  373.942  132.739  41.7867  3716.77  3709.89  2699.82  2925.24
  9664.498  9664.500  1.000  52.9271  373.905  132.763  37.1947  5253.93  5181.29  4493.42  4861.1
  9665.693  9665.700  1.000  84.3984  373.534  132.611  34.8175  7799.43  8317.56  7519.94  7888.77
  9666.900  9666.900  1.000  127.691  373.346  132.526  33.1342  11635.5  12104.2  11744.6  12188.7
  9668.099  9668.100  1.000  152.352  372.367  132.181  31.016  13751.5  14175  14140.6  14663.9
  9669.295  9669.300  1.000  155.679  372.722  132.353  29.2139  13989.8  14687.9  14431  14916.4
  9670.503  9670.500  1.000  160.479  372.729  132.388  27.8424  14502.4  15011.6  14983  15318.1
  9671.711  9671.700  1.000  163.979  372.301  132.272  27.1641  14679  15334.2  15459.9  15576.6
  9672.883  9672.900  1.000  150.527  372.28  132.348  27.898  13844  14070.8  13973.3  14150.1
  9674.104  9674.100  1.000  139.402  371.881  132.257  29.7762  12623.7  13276.3  12919.6  13021.2
  9675.305  9675.300  1.000  134.855  371.598  132.212  31.4528  12275.2  12619.2  12261.4  12956
  9676.499  9676.500  1.000  128.131  371.347  132.168  32.3078  11734.8  12100.2  11604.4  12141.7
  9677.696  9677.700  1.000  115.95  371.256  132.189  32.6553  10526.7  10900.1  10658.9  10961.7
  9678.898  9678.900  1.000  108.073  371.032  132.177  32.7307  9880.53  10183.9  9843.62  10190.5
  9680.092  9680.100  1.000  100.721  370.576  132.064  32.847  9466.56  9406.5  9059.35  9392.21
  9681.295  9681.300  1.000  98.1137  370.55  132.109  33.3431  9117.95  9214.17  8826.01  9197.9
  9682.506  9682.500  1.000  97.5186  370.391  132.114  34.0754  8976.1  9254.21  8903.12  8986.56
  9683.596  9683.600  1.000  97.3578  369.784  131.916  34.6594  8899.66  9124.99  8796.9  9179.81
  9687.674  9687.660  1.000  104.083  369.344  131.877  35.0998  9335.49  9906.32  9569.1  9631.55
  9692.039  9692.020  1.000  94.067  370.344  132.426  33.9874  8759.71  8975.87  8377.34  8724.21
  9696.697  9696.680  1.000  85.3186  369.664  132.366  32.3349  8009.93  8185.48  7468.98  7874.87
  9701.672  9701.650  1.000  92.9347  369.049  132.312  31.8371  8511.61  8809.54  8254.13  8722.2
  9706.934  9706.930  1.000  103.269  368.401  132.262  32.9042  9339.7  9641.01  9440.01  9623.68
  9712.515  9712.510  1.000  109.804  368.085  132.35  33.2053  9917.68  10190  10101.1  10208.6
  9718.397  9718.390  1.000  110.16  366.957  132.147  32.7341  9722.8  10357.3  10006  10337.8
  9724.593  9724.580  1.000  112.442  366.466  132.202  32.9469  9907.18  10790  10178.3  10330.8
  9731.095  9731.080  1.000  110.086  365.769  132.187  32.7082  9586.95  10360.3  9894.77  10424
  9737.898  9737.880  1.000  106.296  365.075  132.181  31.9948  9370.04  9987.62  9675.39  9772.93
  9744.997  9744.980  1.000  103.485  364.296  132.157  32.3194  9199.89  9537.89  9291.83  9669.76
  9752.403  9752.390  1.000  102.332  363.606  132.196  33.4838  9144.5  9474.79  9241.78  9347.3
  9760.121  9760.110  1.000  102.679  362.876  132.189  34.0869  9317.11  9450.8  9103.57  9388.37
  9768.127  9768.120  1.000  102.688  362.06  132.187  34.0017  9050.39  9303.49  9159.61  9665.78
  9776.466  9776.450  1.000  103.602  361.522  132.274  33.2742  9021.93  9454.82  9365.03  9612.75
  9785.092  9785.080  1.000  105.534  356.67  130.792  32.2874  9210.6  9510.81  9295.8  9623.71
  9794.040  9794.010  1.000  107.517  359.773  132.233  32.9394  9310.63  9791.44  9700.52  9879.25
  9803.258  9803.250  1.000  106.246  353.611  130.307  32.9003  9107.29  9480.77  9365.96  9615.7
  9812.824  9812.790  1.000  105.003  357.755  132.143  34.1372  8936.33  9513.03  9375.13  9741.04
  9822.679  9822.640  1.000  104.768  356.953  132.186  34.7681  9057.46  9481.95  9312.99  9544.76
  9832.809  9832.790  1.000  103.911  355.773  132.101  34.2031  8984.65  9399.87  9141.74  9442.59
  9843.267  9843.250  1.000  104.77  353.809  131.729  34.0433  8952.19  9233.55  9338.04  9544.74
  9854.033  9854.010  1.000  103.412  353.857  132.113  34.0636  8909.2  9216.55  9090.68  9376.51
  9865.097  9865.070  1.000  104.034  352.509  131.967  34.0618  8851.86  9290.72  9059.68  9470.67
  9876.472  9876.450  1.000  103.707  350.838  131.729  34.494  8926.8  9179.52  9050.63  9227.27
  9888.146  9888.120  1.000  103.605  350.404  131.962  35.2794  8900.14  9067.42  8995.65  9340.52
  9900.123  9900.100  1.000  103.069  349.611  132.043  35.5115  8583.04  8984.38  9147.98  9318.63
  9912.393  9912.390  1.000  103.034  348.652  132.109  35.4116  8568.29  9041.43  8975.68  9337.6
  9924.992  9924.980  1.000  103.646  346.919  131.844  35.4139  8459.06  9001.34  9096.8  9399.64
  9937.885  9937.870  1.000  103.476  346.392  132.054  35.5913  8740.89  8981.36  9041.79  9079.22
  9951.069  9951.070  1.000  101.9  345.033  131.957  35.8091  8432.13  8801.1  8859.53  9066.22
  9964.593  9964.580  1.000  102.365  343.64  131.872  36.2194  8464.72  8857.2  8797.42  9057.2
  9978.414  9978.390  1.000  102.922  342.565  131.896  36.6217  8434.47  8680.94  8881.58  9260.55
  9992.516  9992.500  1.000  101.859  340.726  131.629  36.7722  8302.52  8556.75  8857.56  8989.17
  10006.935  10006.920  1.000  102.682  339.702  131.688  36.9296  8157.28  8742.11  8819.56  9162.45
  10021.671  10021.650  1.000  101.624  338.251  131.576  37.0504  8301.53  8560.82  8720.37  8791.88
  10036.713  10036.680  1.000  101.999  334.452  130.567  36.9733  8191.03  8510.68  8582.16  8829.86
  10052.029  10052.010  1.000  100.989  335.246  131.354  37.5369  8091.45  8492.68  8484.01  8787.84
  10067.668  10067.650  1.000  101.215  333.359  131.076  37.8259  7993.23  8564.88  8435  8747.85
  10083.622  10083.590  1.000  101.572  331.406  130.786  38.0242  8073.11  8481.72  8404.95  8701.79
  10099.874  10099.840  1.000  101.523  329.812  130.654  38.2682  7964.11  8272.35  8417  8830
  10116.392  10116.390  1.000  101.644  327.812  130.355  38.4175  7940.07  8274.37  8488.04  8617.64
  10133.282  10133.250  1.000  101.286  326.138  130.191  38.5963  7938.69  8122.12  8399.95  8572.6
  10150.442  10150.410  1.000  100.697  324.201  129.92  38.8018  7647.54  8118.14  8425.98  8454.41
  10167.922  10167.880  1.000  101.178  322.047  129.567  39.0226  7656.69  8081.06  8290.83  8555.59
  10185.643  10185.650  1.000  99.9738  320.233  129.339  39.2718  7536.21  8099.1  8121.52  8258.09
  10203.720  10203.730  1.000  100.792  317.967  128.954  39.4578  7455.66  8163.24  8221.7  8208.02
  10222.126  10222.110  1.000  101.373  315.78  128.593  39.6323  7444.63  8024.01  8268.77  8274.12
  10240.794  10240.800  1.000  100.321  312.964  127.981  39.7156  7372.12  7765.46  8120.51  8138.85
  10259.778  10259.790  1.000  102.25  311.279  127.815  39.9435  7405.72  7915.79  8258.75  8248.09
  10279.085  10279.090  1.000  101.852  309.032  127.429  40.1349  7380.55  7823.63  8131.52  8139.88
  10298.688  10298.690  1.000  102.328  307.813  127.469  40.461  7423.68  7944.89  7922.22  8207.04

File: Zn_ZnO.001
# XDI/1.0 BlueSky/1.11.0 BMM/2023-2.1-py310-tiled
# Beamline.name: BMM (06BM) -- Beamline for Materials Measurement (NIST)
# Beamline.xray_source: NSLS-II three-pole wiggler
# Beamline.collimation: paraboloid mirror, 5 nm Rh on 30 nm Pt
# Beamline.focusing: not in use
# Beamline.harmonic_rejection: flat mirror, Pt stripe, pitch = 7.0 mrad relative to beam
# Beamline.software: Bluesky 1.11.0, Ophyd 1.8.0, DataBroker 2.0.0b23, Python 3.10.8, 2023-2.1-py310-tiled
# Detector.I0: 10 cm N2
# Detector.I1: 25 cm N2
# Detector.I2: 25 cm N2
# Element.symbol: Zn
# Element.edge: K
# Element.reference: Zn
# Element.reference_material: Zn foil
# Facility.name: NSLS-II
# Facility.energy: 3.0
# Facility.current: 400.1
# Facility.mode: top-off
# Facility.GUP: 315355
# Facility.SAF: 313563
# Facility.cycle: 2024-1
# Mono.name: Si(111)
# Mono.d_spacing: 3.13542
# Mono.encoder_resolution: 0.0000050 deg/ct
# Mono.angle_offset: 16.0892 deg
# Mono.scan_mode: pseudo channel cut
# Mono.scan_type: step
# Mono.direction: forward in energy
# Sample.name: ZnO
# Sample.prep: powder on tape
# Sample.x: 113.234 mm
# Sample.y: 81.177 mm
# Sample.SDD_position: 205.000 mm
# Scan.experimenters: Bruce Ravel
# Scan.edge_energy: 9658.6
# Scan.start_time: 2024-03-21T13:54:32
# Scan.end_time: 2024-03-21T14:01:32
# Scan.transient_id: 5330
# Scan.uid: 6cb172b4-bdf4-4b8d-a7ff-3f046fcddf0e
# Scan.hdf5file: None
# Scan.plot_hint: ln(I0/It)  --  ln($5/$6)
# Column.1: energy eV
# Column.2: requested_energy eV
# Column.3: measurement_time seconds
# Column.4: xmu
# Column.5: I0 nA
# Column.6: It nA
# Column.7: Ir nA
# ///////////
# sample courtesy Martin Stennett, University of Sheffield
# -----------
# energy  requested_energy  measurement_time  xmu  I0  It  Ir
  9458.636  9458.600  0.500  1.571619  194.266  40.3508  20.707
  9488.645  9488.600  0.500  1.558281  192.627  40.5476  20.9611
  9518.630  9518.600  0.500  1.544956  191.307  40.8098  21.2407
  9548.628  9548.600  0.500  1.532211  189.853  41.0191  21.5021
  9578.587  9578.600  0.500  1.520007  188.832  41.2996  21.7822
  9608.578  9608.600  0.500  1.509480  187.392  41.4182  21.9898
  9630.578  9630.600  0.500  1.505084  186.326  41.3641  22.0381
  9636.572  9636.600  0.500  1.505590  185.92  41.2532  21.9832
  9642.569  9642.600  0.500  1.507990  185.764  41.1198  21.9054
  9648.570  9648.600  0.500  1.514301  185.15  40.7261  21.6393
  9649.458  9649.500  0.500  1.515889  185.475  40.7327  21.6235
  9650.364  9650.400  0.500  1.517817  185.701  40.7039  21.5855
  9651.269  9651.300  0.500  1.520039  185.647  40.6017  21.5086
  9652.174  9652.200  0.500  1.522824  185.663  40.4922  21.42
  9653.084  9653.100  0.500  1.525996  185.688  40.3694  21.3205
  9653.986  9654.000  0.500  1.529708  185.781  40.24  21.2014
  9654.892  9654.900  0.500  1.534191  185.695  40.0414  21.042
  9655.786  9655.800  0.500  1.540055  185.66  39.7997  20.8381
  9656.684  9656.700  0.500  1.547278  185.735  39.5293  20.5946
  9657.591  9657.600  0.500  1.556615  185.767  39.1686  20.2557
  9658.490  9658.500  0.500  1.568872  185.733  38.6844  19.7856
  9659.392  9659.400  0.500  1.586496  185.791  38.0205  19.0585
  9660.295  9660.300  0.500  1.613482  185.712  36.9925  17.7493
  9661.195  9661.200  0.500  1.659091  185.738  35.3482  15.3278
  9662.094  9662.100  0.500  1.739731  185.668  32.5973  12.1692
  9663.002  9663.000  0.500  1.892363  185.598  27.9725  9.115468
  9663.897  9663.900  0.500  2.155618  185.736  21.5141  6.349778
  9664.789  9664.800  0.500  2.531122  185.589  14.7672  4.057901
  9665.693  9665.700  0.500  2.861878  185.62  10.6103  2.774362
  9666.605  9666.600  0.500  2.978417  185.544  9.439241  2.372122
  9667.498  9667.500  0.500  3.016183  185.314  9.078137  2.185361
  9668.402  9668.400  0.500  3.113795  185.002  8.220015  1.886108
  9669.303  9669.300  0.500  3.280195  185.225  6.968324  1.532773
  9670.196  9670.200  0.500  3.482473  185.279  5.693858  1.205969
  9671.089  9671.100  0.500  3.680858  185.262  4.668849  0.960745
  9671.994  9672.000  0.500  3.781870  185.239  4.219761  0.861692
  9672.907  9672.900  0.500  3.697657  185.064  4.586162  0.962904
  9673.801  9673.800  0.500  3.512586  185.785  5.540065  1.221049
  9674.707  9674.700  0.500  3.308718  185.73  6.790865  1.568212
  9675.597  9675.600  0.500  3.159244  185.781  7.887864  1.877230
  9676.503  9676.500  0.500  3.032247  185.756  8.954754  2.167254
  9677.389  9677.400  0.500  2.910841  185.691  10.1072  2.467529
  9678.295  9678.300  0.500  2.841874  185.614  10.8243  2.652742
  9679.202  9679.200  0.500  2.844249  185.556  10.7953  2.650533
  9680.109  9680.100  0.500  2.908787  185.402  10.1122  2.495557
  9681.008  9681.000  0.500  3.018372  185.458  9.065315  2.259397
  9681.907  9681.900  0.500  3.111243  185.332  8.255696  2.088938
  9682.798  9682.800  0.500  3.140955  185.301  8.012709  2.060069
  9683.600  9683.600  0.500  3.117235  185.269  8.203601  2.134779
  9686.632  9686.610  0.500  3.010341  184.962  9.113986  2.405230
  9689.811  9689.800  0.500  2.876055  184.934  10.4223  2.704900
  9693.192  9693.160  0.500  2.781122  184.711  11.4463  2.862968
  9696.693  9696.680  0.500  2.676919  184.567  12.6935  3.064504
  9700.408  9700.380  0.500  2.657119  184.289  12.9279  3.074946
  9704.252  9704.250  0.500  2.734139  184.131  11.9593  2.891171
  9708.306  9708.300  0.500  2.841642  183.715  10.7161  2.655714
  9712.532  9712.510  0.500  2.957507  183.882  9.552327  2.371802
  9716.908  9716.890  0.500  3.114792  183.612  8.150109  1.997649
  9721.459  9721.450  0.500  2.987898  183.299  9.237035  2.270801
  9726.203  9726.180  0.500  2.926326  182.967  9.805848  2.417157
  9731.104  9731.080  0.500  2.927014  182.728  9.786299  2.395030
  9736.156  9736.150  0.500  2.987130  182.584  9.208052  2.215407
  9741.391  9741.390  0.500  3.034301  182.212  8.765919  2.094438
  9746.811  9746.810  0.500  2.987571  182.059  9.177563  2.241291
  9752.403  9752.390  0.500  2.904209  181.566  9.948408  2.490990
  9758.161  9758.150  0.500  2.820061  181.34  10.8083  2.742095
  9764.100  9764.080  0.500  2.788143  181.107  11.1445  2.850685
  9770.194  9770.180  0.500  2.816951  180.669  10.8018  2.731691
  9776.470  9776.450  0.500  2.883192  180.599  10.1056  2.513138
  9782.903  9782.890  0.500  2.913826  179.854  9.760291  2.384474
  9789.514  9789.500  0.500  2.904869  179.538  9.830803  2.409536
  9796.317  9796.290  0.500  2.918600  179.415  9.690090  2.391913
  9803.275  9803.250  0.500  2.917641  176.335  9.532859  2.378907
  9810.401  9810.370  0.500  2.862442  178.811  10.2153  2.590916
  9817.713  9817.670  0.500  2.836339  178.311  10.4562  2.702004
  9825.132  9825.150  0.500  2.866821  177.981  10.1235  2.624135
  9832.793  9832.790  0.500  2.892664  177.519  9.839593  2.516081
  9840.587  9840.600  0.500  2.885827  177.093  9.883321  2.521464
  9848.586  9848.590  0.500  2.859043  176.63  10.1251  2.581630
  9856.771  9856.750  0.500  2.826278  176.278  10.4415  2.656174
  9865.092  9865.070  0.500  2.792402  175.675  10.7643  2.743793
  9873.584  9873.570  0.500  2.788605  175.375  10.7868  2.773826
  9882.259  9882.250  0.500  2.809040  174.899  10.5399  2.757284
  9891.102  9891.090  0.500  2.827002  174.533  10.3306  2.736331
  9900.110  9900.100  0.500  2.831054  173.901  10.2516  2.721478
  9909.308  9909.290  0.500  2.813835  173.342  10.3961  2.751905
  9918.673  9918.650  0.500  2.801986  173.04  10.5017  2.781967
  9928.180  9928.170  0.500  2.784818  172.633  10.6585  2.827296
  9937.889  9937.870  0.500  2.771606  172.621  10.7994  2.872931
  9947.763  9947.750  0.500  2.761141  172.116  10.8811  2.908515
  9957.798  9957.790  0.500  2.756334  167.299  10.6275  2.861293
  9968.022  9968.000  0.500  2.759716  170.618  10.8018  2.940020
  9978.418  9978.390  0.500  2.756327  170.302  10.8184  2.966683
  9988.966  9988.950  0.500  2.735171  169.554  11.0012  3.030530
  9999.701  9999.680  0.500  2.714019  169.141  11.209  3.098150
  10010.598  10010.580  0.500  2.709944  166.586  11.0847  3.073111
  10021.702  10021.650  0.500  2.706624  167.847  11.2057  3.117003
  10032.922  10032.890  0.500  2.705927  167.074  11.162  3.116869
  10044.348  10044.310  0.500  2.703276  166.717  11.1676  3.136343
  10055.913  10055.890  0.500  2.694703  166.039  11.218  3.174537
  10067.682  10067.650  0.500  2.681718  165.396  11.3206  3.226920
  10079.619  10079.580  0.500  2.667540  164.804  11.4411  3.279689
  10091.726  10091.680  0.500  2.655042  161.871  11.3789  3.279750
  10103.977  10103.950  0.500  2.645672  163.307  11.5879  3.356462
  10116.419  10116.390  0.500  2.638826  162.683  11.6229  3.381308
  10129.047  10129.010  0.500  2.634590  161.916  11.6173  3.395009
  10141.814  10141.790  0.500  2.625100  161.126  11.6707  3.428894
  10154.816  10154.750  0.500  2.614039  160.418  11.7487  3.472189
  10167.895  10167.880  0.500  2.605068  159.598  11.794  3.507938
  10181.203  10181.180  0.500  2.593415  158.951  11.8839  3.554153
  10194.680  10194.650  0.500  2.585435  157.995  11.9071  3.583394
  10208.335  10208.300  0.500  2.579774  157.163  11.9116  3.605717
  10222.144  10222.110  0.500  2.572309  156.514  11.9513  3.635882
  10236.136  10236.100  0.500  2.561991  155.671  12.0102  3.672645
  10250.277  10250.260  0.500  2.550371  154.901  12.0904  3.716898
  10264.572  10264.590  0.500  2.539872  154.1  12.1548  3.757804
  10279.108  10279.090  0.500  2.528965  153.16  12.2132  3.798475
  10293.806  10293.760  0.500  2.519932  152.465  12.2682  3.836702
  10298.665  10298.690  0.500  2.516955  152.17  12.2808  3.848363